Voltage (V)	Current (A)	Current Density (A/m^2)	 Dividing Wavelength (nm) = 620  Light Power Density (W/m^2) = 1076.543839  Total Light Power Density (W/m^2) = 1076.543839	
-0.199864	-4.467687E-5	-5.584609
-0.193177	-4.452198E-5	-5.565247
-0.186464	-4.410670E-5	-5.513338
-0.179729	-4.437802E-5	-5.547253
-0.173023	-4.390535E-5	-5.488169
-0.166309	-4.363674E-5	-5.454593
-0.159608	-4.346070E-5	-5.432588
-0.152855	-4.336816E-5	-5.421020
-0.146156	-4.288108E-5	-5.360135
-0.139447	-4.259897E-5	-5.324871
-0.132769	-4.219213E-5	-5.274016
-0.125996	-4.251076E-5	-5.313845
-0.119321	-4.224843E-5	-5.281054
-0.112616	-4.181513E-5	-5.226891
-0.105908	-4.173494E-5	-5.216868
-0.099200	-4.099159E-5	-5.123949
-0.092459	-4.074238E-5	-5.092797
-0.085753	-4.057250E-5	-5.071562
-0.079047	-4.088878E-5	-5.111098
-0.072367	-4.060878E-5	-5.076098
-0.065596	-3.991227E-5	-4.989034
-0.058913	-3.993890E-5	-4.992362
-0.052216	-3.935937E-5	-4.919921
-0.045503	-3.929982E-5	-4.912478
-0.038796	-3.917768E-5	-4.897210
-0.032053	-3.876695E-5	-4.845869
-0.025348	-3.886887E-5	-4.858609
-0.018638	-3.863642E-5	-4.829553
-0.011964	-3.812161E-5	-4.765201
-0.005189	-3.817336E-5	-4.771670
0.001448	-3.815836E-5	-4.769795
0.008153	-3.752020E-5	-4.690025
0.014858	-3.736622E-5	-4.670778
0.021606	-3.711999E-5	-4.639999
0.028319	-3.718164E-5	-4.647705
0.034989	-3.693445E-5	-4.616806
0.041694	-3.663703E-5	-4.579629
0.048404	-3.600348E-5	-4.500435
0.055151	-3.634433E-5	-4.543041
0.061860	-3.630589E-5	-4.538236
0.068566	-3.580825E-5	-4.476031
0.075241	-3.557800E-5	-4.447250
0.082017	-3.565148E-5	-4.456435
0.088693	-3.505154E-5	-4.381442
0.095405	-3.455087E-5	-4.318859
0.102111	-3.445776E-5	-4.307220
0.108814	-3.424076E-5	-4.280095
0.115555	-3.410632E-5	-4.263290
0.122271	-3.382771E-5	-4.228464
0.128943	-3.296343E-5	-4.120429
0.135648	-3.290095E-5	-4.112619
0.142388	-3.266678E-5	-4.083348
0.149105	-3.217718E-5	-4.022147
0.155813	-3.248496E-5	-4.060620
0.162524	-3.185376E-5	-3.981720
0.169261	-3.197230E-5	-3.996538
0.175963	-3.128379E-5	-3.910474
0.182679	-3.108034E-5	-3.885042
0.189355	-3.064084E-5	-3.830105
0.196061	-3.055631E-5	-3.819539
0.202803	-3.021801E-5	-3.777251
0.209511	-2.963002E-5	-3.703753
0.216225	-2.909738E-5	-3.637173
0.222931	-2.921904E-5	-3.652380
0.229666	-2.853741E-5	-3.567176
0.236395	-2.806134E-5	-3.507668
0.243074	-2.773719E-5	-3.467149
0.249782	-2.738462E-5	-3.423078
0.256518	-2.689453E-5	-3.361816
0.263224	-2.667203E-5	-3.334004
0.269932	-2.610461E-5	-3.263076
0.276643	-2.558864E-5	-3.198580
0.283317	-2.488527E-5	-3.110659
0.290089	-2.455034E-5	-3.068793
0.296769	-2.407117E-5	-3.008896
0.303477	-2.344804E-5	-2.931005
0.310190	-2.208305E-5	-2.760381
0.316929	-2.265031E-5	-2.831289
0.323633	-2.185724E-5	-2.732155
0.330346	-2.087941E-5	-2.609926
0.337030	-2.002253E-5	-2.502816
0.343734	-1.981770E-5	-2.477212
0.350479	-1.871983E-5	-2.339979
0.357184	-1.814057E-5	-2.267571
0.363885	-1.687615E-5	-2.109519
0.370602	-1.584818E-5	-1.981023
0.377339	-1.548920E-5	-1.936150
0.384048	-1.405981E-5	-1.757476
0.390719	-1.301849E-5	-1.627311
0.397421	-1.175690E-5	-1.469612
0.404170	-1.040289E-5	-1.300361
0.410869	-8.949120E-6	-1.118640
0.417584	-7.006542E-6	-0.875818
0.424272	-5.507447E-6	-0.688431
0.430990	-3.906634E-6	-0.488329
0.437727	-1.799102E-6	-0.224888
0.444414	2.868224E-7	0.035853
0.451095	2.792418E-6	0.349052
0.457790	5.698208E-6	0.712276
0.464540	8.287489E-6	1.035936
0.471262	1.138084E-5	1.422605
0.477972	1.565604E-5	1.957005
0.484678	1.927067E-5	2.408834
0.491423	2.401829E-5	3.002286
0.498138	2.869026E-5	3.586283
0.504809	3.467411E-5	4.334264
0.511509	4.040754E-5	5.050942
0.518213	4.728467E-5	5.910584
0.524959	5.520978E-5	6.901223
0.531659	6.462525E-5	8.078156
0.538366	7.431638E-5	9.289547
0.545032	8.571042E-5	10.713803
0.551802	9.861101E-5	12.326376
0.558504	0.000113	14.186663
0.565212	0.000131	16.358800
0.571919	0.000150	18.739650
0.578627	0.000172	21.507900
0.585367	0.000198	24.728388
0.592083	0.000226	28.303013
0.598759	0.000259	32.407663
0.605468	0.000297	37.126463
0.612207	0.000340	42.478438
0.618917	0.000388	48.540263
0.625622	0.000444	55.451250
0.632331	0.000505	63.178963
0.639066	0.000575	71.931225
0.645776	0.000653	81.648363
0.652448	0.000739	92.421813
0.659154	0.000835	104.407163
0.665858	0.000940	117.536375
0.672625	0.001056	132.045875
0.679336	0.001182	147.702750
0.686047	0.001318	164.721000
0.692727	0.001463	182.909375
0.699500	0.001621	202.625625
0.706205	0.001787	223.421125
0.712892	0.001963	245.387750
0.719596	0.002149	268.648625
0.726309	0.002345	293.098375
0.733047	0.002550	318.780000
0.739758	0.002764	345.445875
0.746471	0.002985	373.123375
0.753143	0.003213	401.582125
0.759911	0.003452	431.480125
0.766583	0.003695	461.854625
0.773289	0.003945	493.184375
0.780000	0.004203	525.416250
0.786739	0.004468	558.495250
0.793446	0.004737	592.155500
0.800152	0.005012	626.553000
