Voltage (V)	Current (A)	Current Density (A/m^2)	 Dividing Wavelength (nm) = 810  Light Power Density (W/m^2) = 1076.543839  Total Light Power Density (W/m^2) = 1076.543839	
-0.199908	-0.000280	-34.966738
-0.193234	-0.000267	-33.353213
-0.186523	-0.000254	-31.772100
-0.179791	-0.000242	-30.228487
-0.173084	-0.000230	-28.724837
-0.166369	-0.000218	-27.247837
-0.159663	-0.000207	-25.816212
-0.152919	-0.000195	-24.413275
-0.146218	-0.000184	-23.049663
-0.139502	-0.000174	-21.721025
-0.132827	-0.000163	-20.428538
-0.126056	-0.000153	-19.146863
-0.119379	-0.000143	-17.920600
-0.112677	-0.000134	-16.721338
-0.105968	-0.000124	-15.552950
-0.099256	-0.000115	-14.407663
-0.092513	-0.000106	-13.290650
-0.085814	-9.755787E-5	-12.194734
-0.079106	-8.907572E-5	-11.134465
-0.072429	-8.082898E-5	-10.103623
-0.065657	-7.261278E-5	-9.076598
-0.058980	-6.471649E-5	-8.089561
-0.052275	-5.692260E-5	-7.115325
-0.045562	-4.928398E-5	-6.160498
-0.038856	-4.178324E-5	-5.222905
-0.032115	-3.435740E-5	-4.294675
-0.025410	-2.707173E-5	-3.383966
-0.018708	-1.986215E-5	-2.482769
-0.012029	-1.275909E-5	-1.594886
-0.005245	-5.591489E-6	-0.698936
0.001395	1.393022E-6	0.174128
0.008083	8.427694E-6	1.053462
0.014798	1.546628E-5	1.933285
0.021539	2.256248E-5	2.820310
0.028252	2.967545E-5	3.709431
0.034927	3.680246E-5	4.600308
0.041624	4.403486E-5	5.504358
0.048333	5.135404E-5	6.419255
0.055082	5.882519E-5	7.353149
0.061786	6.638827E-5	8.298534
0.068483	7.405405E-5	9.256756
0.075151	8.182657E-5	10.228321
0.081930	8.990723E-5	11.238404
0.088609	9.801809E-5	12.252261
0.095341	0.000106	13.293900
0.102042	0.000115	14.360975
0.108746	0.000124	15.454438
0.115483	0.000133	16.578650
0.122201	0.000142	17.727338
0.128873	0.000151	18.899650
0.135575	0.000161	20.097650
0.142317	0.000171	21.346888
0.149035	0.000181	22.614413
0.155746	0.000191	23.916187
0.162454	0.000202	25.250825
0.169188	0.000213	26.629013
0.175898	0.000224	28.029563
0.182613	0.000236	29.473613
0.189286	0.000248	30.944350
0.195993	0.000260	32.464337
0.202739	0.000272	34.033613
0.209436	0.000285	35.631013
0.216148	0.000298	37.273925
0.222854	0.000312	38.959812
0.229588	0.000326	40.695200
0.236288	0.000340	42.472713
0.242971	0.000354	44.283700
0.249678	0.000369	46.150475
0.256411	0.000385	48.087138
0.263116	0.000400	50.059288
0.269821	0.000417	52.087162
0.276526	0.000433	54.156775
0.283200	0.000450	56.284013
0.289974	0.000468	58.495612
0.296646	0.000486	60.735400
0.303355	0.000504	63.057838
0.310067	0.000524	65.448013
0.316808	0.000543	67.905450
0.323508	0.000563	70.417237
0.330224	0.000584	73.004362
0.336901	0.000605	75.642287
0.343611	0.000627	78.395725
0.350346	0.000650	81.223750
0.357055	0.000673	84.144775
0.363764	0.000697	87.145488
0.370474	0.000722	90.234938
0.377218	0.000747	93.417088
0.383919	0.000774	96.705888
0.390592	0.000801	100.087675
0.397294	0.000829	103.586875
0.404041	0.000858	107.243400
0.410741	0.000888	110.966162
0.417442	0.000919	114.861538
0.424156	0.000951	118.862500
0.430872	0.000984	123.019863
0.437613	0.001019	127.378250
0.444349	0.001055	131.835125
0.451021	0.001092	136.454250
0.457726	0.001130	141.289125
0.464481	0.001171	146.383750
0.471195	0.001213	151.663500
0.477896	0.001257	157.157125
0.484594	0.001303	162.847750
0.491337	0.001351	168.884875
0.498051	0.001401	175.147500
0.504727	0.001453	181.650500
0.511432	0.001508	188.480625
0.518135	0.001565	195.683500
0.524884	0.001626	203.294125
0.531586	0.001690	211.226000
0.538292	0.001756	219.531750
0.544961	0.001826	228.242500
0.551735	0.001900	237.540750
0.558427	0.001978	247.205625
0.565134	0.002059	257.386750
0.571837	0.002145	268.132125
0.578548	0.002235	279.403750
0.585285	0.002330	291.295875
0.591999	0.002430	303.781625
0.598680	0.002535	316.844250
0.605380	0.002645	330.633125
0.612115	0.002761	345.147625
0.618832	0.002883	360.314250
0.625542	0.003010	376.215625
0.632253	0.003143	392.856250
0.638986	0.003283	410.319375
0.645699	0.003428	428.482250
0.652372	0.003579	447.352750
0.659077	0.003736	467.053750
0.665788	0.003901	487.576125
0.672517	0.004072	508.988000
0.679222	0.004249	531.067875
0.685927	0.004432	553.944750
0.692605	0.004620	577.517375
0.699371	0.004817	602.101750
0.706084	0.005019	627.357625
0.712760	0.005226	653.206125
0.719467	0.005439	679.852500
0.726181	0.005658	707.302250
0.732919	0.005884	735.550875
0.739633	0.006115	764.338875
0.746336	0.006350	793.792875
0.753007	0.006590	823.788750
0.759779	0.006839	854.856000
0.766447	0.007088	886.046625
0.773159	0.007344	918.020250
0.779890	0.007605	950.629125
0.786632	0.007871	983.910375
0.793329	0.008140	1017.550375
0.800038	0.008414	1051.734000
