Voltage (V)	Current (A)	Current Density (A/m^2)	 Dividing Wavelength (nm) = 510  Light Power Density (W/m^2) = 1107.265488  Total Light Power Density (W/m^2) = 1107.265488	
-0.199879	-0.000310	-38.757150
-0.189796	-0.000308	-38.490838
-0.179748	-0.000307	-38.346275
-0.169639	-0.000308	-38.513675
-0.159523	-0.000308	-38.556888
-0.149472	-0.000308	-38.482775
-0.139361	-0.000306	-38.241625
-0.129287	-0.000308	-38.450488
-0.119235	-0.000305	-38.157950
-0.109125	-0.000306	-38.301088
-0.099015	-0.000304	-38.058225
-0.088969	-0.000305	-38.084888
-0.078861	-0.000306	-38.247138
-0.068778	-0.000302	-37.808712
-0.058661	-0.000303	-37.930388
-0.048617	-0.000302	-37.781287
-0.038505	-0.000302	-37.705013
-0.028402	-0.000301	-37.580450
-0.018352	-0.000301	-37.658450
-0.008272	-0.000297	-37.115150
0.001797	-0.000302	-37.706300
0.011842	-0.000299	-37.322000
0.021918	-0.000301	-37.661050
0.032031	-0.000300	-37.534575
0.042073	-0.000299	-37.414650
0.052195	-0.000299	-37.427500
0.062274	-0.000297	-37.082838
0.072353	-0.000299	-37.422675
0.082429	-0.000297	-37.102500
0.092543	-0.000295	-36.852550
0.102591	-0.000296	-36.984750
0.112702	-0.000293	-36.653450
0.122780	-0.000293	-36.636987
0.132825	-0.000292	-36.466638
0.142940	-0.000291	-36.404112
0.153050	-0.000291	-36.371412
0.163134	-0.000291	-36.374875
0.173177	-0.000292	-36.551513
0.183294	-0.000290	-36.237412
0.193403	-0.000291	-36.367563
0.203451	-0.000290	-36.209000
0.213533	-0.000288	-35.968600
0.223647	-0.000287	-35.845413
0.233694	-0.000286	-35.736525
0.243798	-0.000285	-35.591275
0.253879	-0.000285	-35.661175
0.263956	-0.000284	-35.502563
0.274039	-0.000283	-35.378463
0.284151	-0.000283	-35.315387
0.294198	-0.000280	-35.032775
0.304306	-0.000280	-35.042387
0.314381	-0.000280	-35.004638
0.324440	-0.000278	-34.719450
0.334548	-0.000279	-34.907150
0.344660	-0.000278	-34.797638
0.354703	-0.000276	-34.484337
0.364786	-0.000275	-34.331612
0.374897	-0.000275	-34.326438
0.384944	-0.000272	-34.032938
0.395059	-0.000272	-33.944388
0.405136	-0.000269	-33.615475
0.415239	-0.000267	-33.414462
0.425289	-0.000269	-33.652050
0.435405	-0.000266	-33.235100
0.445484	-0.000265	-33.186462
0.455561	-0.000263	-32.925413
0.465639	-0.000262	-32.708050
0.475757	-0.000261	-32.567063
0.485800	-0.000261	-32.597475
0.495913	-0.000257	-32.062512
0.505996	-0.000253	-31.686888
0.516040	-0.000253	-31.621813
0.526145	-0.000251	-31.351025
0.536255	-0.000247	-30.821775
0.546308	-0.000247	-30.886413
0.556386	-0.000244	-30.472137
0.566494	-0.000242	-30.215825
0.576539	-0.000237	-29.672213
0.586650	-0.000234	-29.256225
0.596732	-0.000232	-28.989888
0.606821	-0.000227	-28.399362
0.616897	-0.000222	-27.758788
0.627009	-0.000216	-27.043088
0.637052	-0.000210	-26.295825
0.647164	-0.000206	-25.754113
0.657239	-0.000199	-24.827475
0.667355	-0.000190	-23.806875
0.677401	-0.000182	-22.765950
0.687510	-0.000172	-21.500412
0.697585	-0.000159	-19.922400
0.707638	-0.000143	-17.883288
0.717748	-0.000125	-15.643700
0.727866	-0.000103	-12.893638
0.737908	-7.617116E-5	-9.521395
0.747980	-4.260691E-5	-5.325864
0.758047	-6.737106E-7	-0.084214
0.768107	5.389889E-5	6.737361
0.778230	0.000123	15.355300
0.788346	0.000207	25.875938
0.798393	0.000314	39.198863
0.808467	0.000442	55.240288
0.818576	0.000597	74.658325
0.828629	0.000781	97.675337
0.838734	0.000999	124.858138
0.848867	0.001244	155.444625
0.858909	0.001520	190.010375
0.869029	0.001827	228.424750
0.879155	0.002162	270.283000
0.889233	0.002520	315.043875
0.899285	0.002901	362.656375
0.909401	0.003305	413.104750
0.919505	0.003728	465.974375
0.929552	0.004166	520.743750
0.939668	0.004623	577.825875
0.949740	0.005091	636.395250
0.959788	0.005571	696.410125
0.969891	0.006066	758.198500
0.980005	0.006571	821.416750
0.990048	0.007083	885.342250
1.000131	0.007605	950.620125
