Wavelength (nm)	EQE (%)	Current (A)	Dark Current (A) -> 	-18.956026000E-9	
400.000000	8.489624	-1.795644E-7
403.000000	5.997821	-2.883193E-7
406.000000	5.723413	-4.471168E-7
409.000000	5.806539	-6.385733E-7
412.000000	8.606759	-1.449880E-6
415.000000	5.583526	-4.491724E-7
418.000000	8.191698	-5.714372E-7
421.000000	8.044466	-6.597909E-7
424.000000	9.565045	-7.092824E-7
427.000000	7.844648	-7.601678E-7
430.000000	9.032762	-1.396379E-6
433.000000	9.119597	-1.321168E-6
436.000000	9.257241	-1.329538E-6
439.000000	9.234693	-1.455029E-6
442.000000	9.323666	-1.542644E-6
445.000000	9.060910	-1.703336E-6
448.000000	8.843182	-1.887288E-6
451.000000	9.329352	-1.754396E-6
454.000000	9.523783	-1.648690E-6
457.000000	9.295697	-1.796582E-6
460.000000	10.089258	-1.433825E-6
463.000000	8.702867	-2.126555E-6
466.000000	9.453359	-1.819325E-6
469.000000	9.667352	-1.712086E-6
472.000000	9.987153	-1.636529E-6
475.000000	9.944076	-1.545486E-6
478.000000	9.208928	-1.837227E-6
481.000000	9.761305	-1.621608E-6
484.000000	9.844049	-1.577093E-6
487.000000	8.890669	-1.967226E-6
490.000000	9.628992	-1.753564E-6
493.000000	9.521596	-1.763038E-6
496.000000	8.883155	-1.978944E-6
499.000000	9.043289	-2.007823E-6
502.000000	9.384059	-1.892731E-6
505.000000	8.859269	-2.176031E-6
508.000000	8.279067	-2.624480E-6
511.000000	8.041693	-2.930697E-6
514.000000	9.258868	-2.162507E-6
517.000000	9.196547	-2.115728E-6
520.000000	7.849671	-3.107871E-6
523.000000	8.177376	-2.949464E-6
526.000000	9.630581	-2.060767E-6
529.000000	8.709467	-2.466984E-6
532.000000	8.897730	-2.738638E-6
535.000000	10.818977	-1.550272E-6
538.000000	8.913644	-2.231539E-6
541.000000	8.329210	-2.797484E-6
544.000000	10.528725	-1.603672E-6
547.000000	8.549162	-2.421891E-6
550.000000	9.095894	-2.332090E-6
553.000000	9.773565	-1.809256E-6
556.000000	8.898669	-2.234629E-6
559.000000	10.062725	-1.750984E-6
562.000000	8.876740	-1.978820E-6
565.000000	9.166249	-1.914264E-6
568.000000	8.833510	-1.820403E-6
571.000000	8.498504	-2.081225E-6
574.000000	8.529198	-1.930281E-6
577.000000	7.660051	-2.580134E-6
580.000000	8.381627	-2.006378E-6
583.000000	7.737770	-1.964542E-6
586.000000	7.398197	-2.438304E-6
589.000000	7.861679	-1.786017E-6
592.000000	8.329238	-1.088606E-6
595.000000	7.661405	-1.197156E-6
598.000000	4.632950	-5.748199E-7
601.000000	4.785648	-8.115061E-7
604.000000	7.177528	-1.260090E-6
607.000000	7.014460	-1.320163E-6
610.000000	6.935410	-1.331701E-6
613.000000	6.236978	-2.039865E-6
616.000000	5.916148	-2.454484E-6
619.000000	6.517386	-1.552481E-6
622.000000	5.382297	-2.546820E-6
625.000000	4.481639	-2.546841E-6
628.000000	5.638077	-1.662557E-6
631.000000	4.846929	-1.726781E-6
634.000000	4.376818	-1.905638E-6
637.000000	3.848489	-2.148863E-6
640.000000	3.497827	-1.927580E-6
643.000000	3.072368	-1.609654E-6
646.000000	2.563579	-1.601553E-6
649.000000	2.209729	-1.339098E-6
652.000000	1.776047	-1.346761E-6
655.000000	1.514741	-1.056163E-6
658.000000	0.712196	-5.375562E-7
661.000000	0.768635	-6.953630E-7
664.000000	0.894304	-7.152256E-7
667.000000	0.734152	-6.624360E-7
670.000000	0.668630	-6.051514E-7
673.000000	0.571762	-5.407203E-7
676.000000	0.485244	-4.855066E-7
679.000000	0.438185	-4.357972E-7
682.000000	0.388128	-3.929376E-7
685.000000	0.337158	-3.615365E-7
688.000000	0.313751	-3.341719E-7
691.000000	0.290037	-3.123274E-7
694.000000	0.282240	-2.925898E-7
697.000000	0.270582	-2.740637E-7
700.000000	0.235199	-2.621546E-7
703.000000	0.225187	-2.550466E-7
706.000000	0.212020	-2.475284E-7
709.000000	0.212331	-2.396286E-7
712.000000	0.181131	-2.330021E-7
715.000000	0.202228	-2.259450E-7
718.000000	0.205021	-2.170180E-7
721.000000	0.162864	-2.136362E-7
724.000000	0.204213	-2.090549E-7
727.000000	0.172686	-1.993709E-7
730.000000	0.190161	-1.940822E-7
733.000000	0.189706	-1.886312E-7
736.000000	0.181824	-1.828725E-7
739.000000	0.210712	-1.770114E-7
742.000000	0.178930	-1.702724E-7
745.000000	0.214193	-1.660607E-7
748.000000	0.196665	-1.613323E-7
751.000000	0.202599	-1.600345E-7
754.000000	0.229984	-1.583461E-7
757.000000	0.197837	-1.554022E-7
760.000000	0.240993	-1.535873E-7
763.000000	0.216970	-1.511279E-7
766.000000	0.234834	-1.488312E-7
769.000000	0.257230	-1.464376E-7
772.000000	0.229551	-1.448157E-7
775.000000	0.266594	-1.433842E-7
778.000000	0.241242	-1.427439E-7
781.000000	0.250673	-1.406733E-7
784.000000	0.266452	-1.409944E-7
787.000000	0.245441	-1.413578E-7
790.000000	0.269935	-1.414647E-7
793.000000	0.237821	-1.397025E-7
796.000000	0.248977	-1.387046E-7
799.000000	0.247697	-1.384820E-7
802.000000	0.230896	-1.374649E-7
805.000000	0.249602	-1.379124E-7
808.000000	0.225910	-1.377404E-7
811.000000	0.245364	-1.360374E-7
814.000000	0.230988	-1.359660E-7
817.000000	0.229520	-1.350768E-7
820.000000	0.236188	-1.356699E-7
823.000000	0.211722	-1.356277E-7
826.000000	0.236128	-1.361906E-7
829.000000	0.204629	-1.344319E-7
832.000000	0.216754	-1.349267E-7
835.000000	0.200636	-1.356378E-7
838.000000	0.196616	-1.344390E-7
841.000000	0.208887	-1.338838E-7
844.000000	0.190124	-1.330807E-7
847.000000	0.202980	-1.332113E-7
850.000000	0.186229	-1.329687E-7
853.000000	0.199953	-1.333847E-7
856.000000	0.196927	-1.323947E-7
859.000000	0.195496	-1.323983E-7
862.000000	0.213081	-1.318780E-7
865.000000	0.213048	-1.320515E-7
868.000000	0.228064	-1.315489E-7
871.000000	0.231788	-1.305254E-7
874.000000	0.251502	-1.303487E-7
877.000000	0.264796	-1.304389E-7
880.000000	0.267520	-1.296675E-7
883.000000	0.286370	-1.300580E-7
886.000000	0.288678	-1.293463E-7
889.000000	0.298948	-1.286096E-7
892.000000	0.310142	-1.287325E-7
895.000000	0.326724	-1.304562E-7
898.000000	0.331879	-1.315675E-7
901.000000	0.340996	-1.313212E-7
904.000000	0.327110	-1.313919E-7
907.000000	0.332540	-1.308411E-7
910.000000	0.339686	-1.315196E-7
913.000000	0.325852	-1.323732E-7
916.000000	0.344622	-1.324630E-7
919.000000	0.331847	-1.322897E-7
922.000000	0.333242	-1.336335E-7
925.000000	0.348727	-1.330369E-7
928.000000	0.337811	-1.342040E-7
931.000000	0.362506	-1.330404E-7
934.000000	0.337515	-1.312585E-7
937.000000	0.347257	-1.314436E-7
940.000000	0.373702	-1.314639E-7
943.000000	0.365022	-1.306767E-7
946.000000	0.389487	-1.316757E-7
949.000000	0.366671	-1.306578E-7
952.000000	0.387639	-1.310457E-7
955.000000	0.413183	-1.321248E-7
958.000000	0.427927	-1.326361E-7
961.000000	0.446099	-1.326582E-7
964.000000	0.443655	-1.315306E-7
967.000000	0.462987	-1.305273E-7
970.000000	0.472527	-1.311313E-7
973.000000	0.494959	-1.315034E-7
976.000000	0.513294	-1.310355E-7
979.000000	0.550092	-1.296876E-7
982.000000	0.607506	-1.317688E-7
985.000000	0.624969	-1.326020E-7
988.000000	0.630884	-1.308958E-7
991.000000	0.649584	-1.319892E-7
994.000000	0.690983	-1.308637E-7
997.000000	0.718660	-1.317314E-7
1000.000000	0.715189	-1.317423E-7
1003.000000	0.711595	-1.301373E-7
1006.000000	0.732729	-1.302583E-7
1009.000000	0.782896	-1.337280E-7
1012.000000	0.765886	-1.334607E-7
1015.000000	0.753798	-1.335182E-7
1018.000000	0.739445	-1.311945E-7
1021.000000	0.723035	-1.313513E-7
1024.000000	0.694995	-1.306697E-7
1027.000000	0.649274	-1.334731E-7
1030.000000	0.596992	-1.322398E-7
1033.000000	0.566321	-1.310664E-7
1036.000000	0.507736	-1.307988E-7
1039.000000	0.448395	-1.309542E-7
1042.000000	0.504244	-1.318712E-7
1045.000000	0.599627	-1.309007E-7
1048.000000	0.619020	-1.318768E-7
1051.000000	0.604200	-1.315614E-7
1054.000000	0.531419	-1.317435E-7
1057.000000	0.468714	-1.309999E-7
1060.000000	0.413996	-1.309376E-7
1063.000000	0.341529	-1.311789E-7
1066.000000	0.261695	-1.309809E-7
1069.000000	0.121492	-1.297010E-7
1072.000000	0.059713	-1.304024E-7
1075.000000	0.201113	-1.304096E-7
1078.000000	0.286082	-1.294624E-7
1081.000000	0.350376	-1.291354E-7
1084.000000	0.379271	-1.305165E-7
1087.000000	0.418258	-1.306300E-7
1090.000000	0.427063	-1.300072E-7
1093.000000	0.448903	-1.308976E-7
1096.000000	0.459377	-1.321689E-7
1099.000000	0.429168	-1.329200E-7
