Voltage (V)	Current (A)	Current Density (A/m^2)	 Dividing Wavelength (nm) = 680  Light Power Density (W/m^2) = 995.149372  Total Light Power Density (W/m^2) = 995.149372	
-0.199969	-0.001010	-174.165862
-0.191887	-0.001032	-177.939655
-0.179900	-0.001038	-179.038103
-0.167843	-0.001036	-178.653966
-0.167696	-0.001026	-176.862759
-0.159587	-0.001021	-176.116897
-0.151470	-0.001028	-177.230862
-0.143432	-0.001005	-173.335172
-0.135325	-0.001025	-176.802759
-0.127208	-0.000992	-171.040155
-0.119162	-0.001016	-175.138966
-0.111065	-0.001032	-177.980000
-0.103021	-0.001020	-175.944828
-0.094916	-0.001022	-176.134138
-0.086837	-0.001011	-174.265000
-0.078762	-0.001007	-173.617414
-0.070686	-0.001008	-173.834310
-0.062613	-0.001014	-174.860172
-0.054535	-0.001009	-173.946897
-0.046421	-0.001011	-174.251379
-0.038375	-0.000991	-170.837034
-0.030268	-0.000989	-170.435638
-0.022157	-0.000998	-172.019552
-0.014116	-0.000984	-169.716155
-0.006003	-0.000998	-172.050397
0.002026	-0.000987	-170.101017
0.010103	-0.000989	-170.463466
0.018216	-0.000987	-170.235707
0.026255	-0.000986	-170.008862
0.034363	-0.000973	-167.675466
0.042407	-0.000979	-168.872138
0.050515	-0.000977	-168.477103
0.058627	-0.000968	-166.960155
0.066674	-0.000968	-166.922172
0.074749	-0.000954	-164.555810
0.082862	-0.000955	-164.605121
0.090900	-0.000950	-163.871931
0.099016	-0.000945	-162.874362
0.107052	-0.000955	-164.596759
0.115160	-0.000924	-159.241603
0.123275	-0.000922	-159.049500
0.131323	-0.000940	-161.983845
0.139434	-0.000909	-156.733707
0.147475	-0.000917	-158.101155
0.155581	-0.000910	-156.810448
0.163659	-0.000906	-156.174569
0.171698	-0.000894	-154.208190
0.179815	-0.000879	-151.608328
0.187921	-0.000884	-152.369224
0.195963	-0.000870	-150.054603
0.204076	-0.000865	-149.157328
0.212113	-0.000865	-149.111603
0.220227	-0.000847	-145.953793
0.228300	-0.000850	-146.508052
0.236379	-0.000832	-143.514517
0.244449	-0.000829	-142.929069
0.252560	-0.000822	-141.694103
0.260603	-0.000802	-138.320017
0.268713	-0.000787	-135.753345
0.276758	-0.000780	-134.549948
0.284866	-0.000765	-131.818362
0.292978	-0.000756	-130.401655
0.301021	-0.000744	-128.233017
0.309096	-0.000735	-126.723276
0.317171	-0.000711	-122.550948
0.325252	-0.000700	-120.623534
0.333361	-0.000689	-118.716379
0.341403	-0.000689	-118.717983
0.349508	-0.000670	-115.457310
0.357619	-0.000645	-111.191293
0.365661	-0.000628	-108.259448
0.373769	-0.000618	-106.593586
0.381812	-0.000591	-101.942034
0.389889	-0.000583	-100.462776
0.397994	-0.000562	-96.923879
0.406039	-0.000546	-94.219741
0.414145	-0.000528	-90.992224
0.422196	-0.000506	-87.318207
0.430303	-0.000480	-82.763500
0.438415	-0.000452	-77.866586
0.446453	-0.000439	-75.674397
0.454563	-0.000414	-71.340138
0.462643	-0.000382	-65.893483
0.470716	-0.000357	-61.556759
0.478792	-0.000331	-57.069862
0.486834	-0.000298	-51.357897
0.494944	-0.000264	-45.501276
0.503048	-0.000234	-40.275431
0.511093	-0.000198	-34.212603
0.519196	-0.000157	-27.026931
0.527240	-0.000116	-20.044741
0.535359	-7.538553E-5	-12.997505
0.543425	-2.970801E-5	-5.122071
0.551489	1.829207E-5	3.153805
0.559550	6.790781E-5	11.708243
0.567679	0.000121	20.866466
0.575723	0.000176	30.403500
0.583830	0.000235	40.554793
0.591869	0.000295	50.908948
0.599983	0.000358	61.734431
