Voltage (V)	Current (A)	Current Density (A/m^2)	 Dividing Wavelength (nm) = 520  Light Power Density (W/m^2) = 1107.265488  Total Light Power Density (W/m^2) = 1107.265488	
-0.199887	-0.000423	-52.849800
-0.189802	-0.000424	-52.996513
-0.179756	-0.000425	-53.121575
-0.169639	-0.000420	-52.496200
-0.159533	-0.000422	-52.740025
-0.149480	-0.000418	-52.257425
-0.139371	-0.000418	-52.202625
-0.129297	-0.000419	-52.422962
-0.119246	-0.000414	-51.806763
-0.109136	-0.000414	-51.799275
-0.099029	-0.000418	-52.219862
-0.088981	-0.000415	-51.840388
-0.078873	-0.000414	-51.741550
-0.068792	-0.000416	-51.956238
-0.058678	-0.000413	-51.593675
-0.048629	-0.000411	-51.358525
-0.038518	-0.000413	-51.632325
-0.028412	-0.000413	-51.576900
-0.018364	-0.000410	-51.264488
-0.008285	-0.000411	-51.400787
0.001784	-0.000409	-51.074563
0.011834	-0.000409	-51.104363
0.021910	-0.000410	-51.241700
0.032026	-0.000404	-50.453838
0.042065	-0.000406	-50.701338
0.052185	-0.000403	-50.382150
0.062266	-0.000405	-50.608287
0.072342	-0.000406	-50.810400
0.082417	-0.000404	-50.450000
0.092533	-0.000400	-50.040700
0.102584	-0.000399	-49.919025
0.112695	-0.000399	-49.884850
0.122772	-0.000400	-50.060275
0.132815	-0.000399	-49.872388
0.142927	-0.000395	-49.429888
0.153043	-0.000399	-49.886525
0.163125	-0.000396	-49.458588
0.173171	-0.000394	-49.212763
0.183286	-0.000393	-49.132388
0.193396	-0.000392	-48.983975
0.203440	-0.000390	-48.758050
0.213526	-0.000390	-48.802988
0.223639	-0.000387	-48.401625
0.233682	-0.000384	-48.051950
0.243789	-0.000385	-48.159825
0.253869	-0.000385	-48.123112
0.263947	-0.000383	-47.891425
0.274029	-0.000383	-47.860325
0.284139	-0.000381	-47.609375
0.294185	-0.000379	-47.371462
0.304297	-0.000376	-47.041775
0.314373	-0.000382	-47.711750
0.324427	-0.000379	-47.339575
0.334540	-0.000373	-46.667525
0.344650	-0.000373	-46.627412
0.354693	-0.000374	-46.768925
0.364774	-0.000371	-46.345288
0.374887	-0.000369	-46.156338
0.384931	-0.000367	-45.916300
0.395046	-0.000365	-45.597437
0.405119	-0.000364	-45.478313
0.415234	-0.000361	-45.073625
0.425278	-0.000362	-45.309850
0.435395	-0.000358	-44.778875
0.445469	-0.000356	-44.534762
0.455552	-0.000352	-43.968913
0.465627	-0.000353	-44.137388
0.475741	-0.000352	-44.000237
0.485784	-0.000346	-43.220750
0.495905	-0.000344	-43.023525
0.505986	-0.000343	-42.850288
0.516027	-0.000339	-42.418337
0.526137	-0.000339	-42.409350
0.536245	-0.000336	-41.991213
0.546297	-0.000333	-41.576025
0.556374	-0.000328	-41.017300
0.566486	-0.000327	-40.920488
0.576529	-0.000323	-40.339850
0.586636	-0.000316	-39.553938
0.596720	-0.000312	-39.049300
0.606807	-0.000308	-38.530763
0.616883	-0.000302	-37.788250
0.626997	-0.000296	-36.961213
0.637039	-0.000294	-36.784075
0.647153	-0.000284	-35.540950
0.657231	-0.000279	-34.891125
0.667342	-0.000270	-33.806238
0.677388	-0.000256	-32.030900
0.687498	-0.000247	-30.883325
0.697574	-0.000231	-28.862125
0.707625	-0.000213	-26.564325
0.717739	-0.000192	-24.011412
0.727853	-0.000166	-20.757575
0.737901	-0.000135	-16.893538
0.748101	-9.846523E-5	-12.308154
0.758085	-5.251869E-5	-6.564836
0.768106	2.834676E-6	0.354334
0.778219	6.941680E-5	8.677100
0.788336	0.000149	18.675013
0.798388	0.000241	30.154263
0.808455	0.000350	43.719425
0.818571	0.000474	59.311213
0.828623	0.000615	76.839500
0.838736	0.000772	96.518275
0.848806	0.000946	118.251137
0.858889	0.001136	141.995000
0.869006	0.001343	167.906000
0.879129	0.001566	195.703000
0.889211	0.001802	225.228000
0.899255	0.002051	256.350875
0.909373	0.002315	289.316000
0.919478	0.002590	323.737375
0.929530	0.002875	359.393875
0.939648	0.003173	396.666000
0.949717	0.003480	435.025250
0.959770	0.003796	474.466000
0.969875	0.004121	515.186875
0.979988	0.004456	557.008375
0.990026	0.004796	599.482250
1.000112	0.005145	643.090500
