Voltage (V)	Current (A)	Current Density (A/m^2)	 Dividing Wavelength (nm) = 400  Light Power Density (W/m^2) = 1107.265488  Total Light Power Density (W/m^2) = 1107.265488	
-0.199868	-1.168415E-5	-1.460519
-0.189787	-1.098340E-5	-1.372925
-0.179740	-1.036251E-5	-1.295314
-0.169606	-9.710453E-6	-1.213807
-0.159497	-9.160548E-6	-1.145069
-0.149453	-8.595280E-6	-1.074410
-0.139334	-8.059608E-6	-1.007451
-0.129263	-7.595111E-6	-0.949389
-0.119212	-7.138577E-6	-0.892322
-0.109104	-6.718446E-6	-0.839806
-0.098991	-6.327441E-6	-0.790930
-0.088953	-5.946232E-6	-0.743279
-0.078846	-5.584989E-6	-0.698124
-0.068764	-5.258900E-6	-0.657362
-0.058650	-4.953154E-6	-0.619144
-0.048595	-4.641634E-6	-0.580204
-0.038489	-4.380994E-6	-0.547624
-0.028388	-4.102283E-6	-0.512785
-0.018338	-3.817360E-6	-0.477170
-0.008256	-3.607864E-6	-0.450983
0.001813	-3.336578E-6	-0.417072
0.011865	-3.109391E-6	-0.388674
0.021943	-2.861818E-6	-0.357727
0.032054	-2.621090E-6	-0.327636
0.042102	-2.373236E-6	-0.296655
0.052222	-2.109890E-6	-0.263736
0.062304	-1.865553E-6	-0.233194
0.072381	-1.574370E-6	-0.196796
0.082457	-1.304856E-6	-0.163107
0.092891	-1.002343E-6	-0.125293
0.102603	-6.908180E-7	-0.086352
0.112717	-3.631855E-7	-0.045398
0.122866	-1.629074E-8	-0.002036
0.132819	3.176507E-7	0.039706
0.142941	7.040714E-7	0.088009
0.153054	1.121142E-6	0.140143
0.163144	1.581030E-6	0.197629
0.173188	2.063009E-6	0.257876
0.183306	2.553599E-6	0.319200
0.193419	3.110772E-6	0.388847
0.203466	3.636526E-6	0.454566
0.213545	4.254473E-6	0.531809
0.223657	4.900352E-6	0.612544
0.233707	5.559132E-6	0.694891
0.243809	6.352617E-6	0.794077
0.253891	7.163044E-6	0.895381
0.263966	7.999366E-6	0.999921
0.274056	8.939034E-6	1.117379
0.284162	9.956846E-6	1.244606
0.294215	1.100813E-5	1.376016
0.304330	1.221455E-5	1.526819
0.314404	1.345070E-5	1.681338
0.324465	1.480946E-5	1.851183
0.334569	1.631302E-5	2.039128
0.344689	1.794016E-5	2.242520
0.354731	1.970194E-5	2.462743
0.364809	2.158715E-5	2.698394
0.374920	2.364348E-5	2.955435
0.384970	2.587265E-5	3.234081
0.395082	2.827519E-5	3.534399
0.405159	3.092899E-5	3.866124
0.415266	3.376206E-5	4.220257
0.425319	3.686117E-5	4.607646
0.435432	4.021113E-5	5.026391
0.445504	4.380587E-5	5.475734
0.455583	4.775456E-5	5.969320
0.465658	5.196724E-5	6.495905
0.475774	5.656494E-5	7.070617
0.485811	6.149993E-5	7.687491
0.495926	6.682434E-5	8.353043
0.506004	7.255398E-5	9.069247
0.516047	7.869674E-5	9.837093
0.526151	8.533784E-5	10.667230
0.536255	9.248605E-5	11.560756
0.546304	0.000100	12.508063
0.556389	0.000108	13.529025
0.566501	0.000117	14.630438
0.576545	0.000126	15.802875
0.586658	0.000137	17.069875
0.596742	0.000147	18.421250
0.606827	0.000159	19.870200
0.616914	0.000171	21.429938
0.627023	0.000185	23.108725
0.637056	0.000199	24.903775
0.647175	0.000215	26.865425
0.657257	0.000232	28.988225
0.667368	0.000250	31.302212
0.677416	0.000271	33.825788
0.687522	0.000293	36.630563
0.697605	0.000318	39.736375
0.707648	0.000346	43.204687
0.717762	0.000377	47.153188
0.727880	0.000413	51.654187
0.737921	0.000454	56.802188
0.747992	0.000502	62.783712
0.758101	0.000558	69.787288
0.768152	0.000624	77.952162
0.778268	0.000701	87.627700
0.788370	0.000792	98.997900
0.798419	0.000898	112.270388
0.808479	0.001022	127.763125
0.818646	0.001166	145.804875
0.828691	0.001331	166.347750
0.838808	0.001519	189.831750
0.848889	0.001729	216.079000
0.858937	0.001961	245.063000
0.869051	0.002217	277.080875
0.879175	0.002495	311.861250
0.889257	0.002793	349.068500
0.899301	0.003109	388.615250
0.909421	0.003445	430.662875
0.919525	0.003798	474.774375
0.929564	0.004165	520.595375
0.939678	0.004548	568.476250
0.949754	0.004942	617.799750
0.959803	0.005348	668.501750
0.969904	0.005767	720.852750
0.980022	0.006196	774.510625
0.990065	0.006632	828.957625
1.000142	0.007077	884.684000
