Voltage (V)	Current (A)	Current Density (A/m^2)	 Dividing Wavelength (nm) = 570  Light Power Density (W/m^2) = 1076.543839  Total Light Power Density (W/m^2) = 1076.543839	
-0.199813	-0.008093	-1011.587500
-0.193125	-0.007853	-981.601125
-0.186416	-0.007616	-951.975125
-0.179674	-0.007359	-919.914375
-0.172974	-0.007126	-890.700625
-0.166255	-0.006888	-860.961250
-0.159547	-0.006642	-830.241375
-0.152806	-0.006405	-800.686875
-0.146101	-0.006163	-770.326125
-0.139388	-0.005920	-739.940625
-0.132713	-0.005673	-709.083250
-0.125938	-0.005435	-679.407375
-0.119263	-0.005187	-648.325875
-0.112560	-0.004948	-618.456250
-0.105854	-0.004709	-588.678375
-0.099150	-0.004472	-559.003500
-0.092404	-0.004225	-528.159250
-0.085695	-0.003982	-497.748750
-0.078999	-0.003740	-467.439500
-0.072319	-0.003489	-436.110625
-0.065545	-0.003260	-407.525625
-0.058868	-0.003013	-376.646125
-0.052168	-0.002774	-346.798625
-0.045461	-0.002528	-316.012875
-0.038748	-0.002282	-285.238875
-0.032011	-0.002040	-255.011250
-0.025302	-0.001800	-225.031000
-0.018601	-0.001558	-194.724000
-0.011928	-0.001320	-164.946875
-0.005148	-0.001079	-134.921625
0.001466	-0.000838	-104.796588
0.008167	-0.000601	-75.100188
0.014880	-0.000353	-44.102913
0.021616	-0.000105	-13.113088
0.028329	0.000134	16.731175
0.035004	0.000381	47.640250
0.041697	0.000616	76.991188
0.048405	0.000864	108.026150
0.055178	0.001105	138.184500
0.061886	0.001340	167.464000
0.068593	0.001582	197.722625
0.075267	0.001825	228.115250
0.082042	0.002067	258.403125
0.088730	0.002313	289.087500
0.095433	0.002552	319.047250
0.102139	0.002792	348.957125
0.108853	0.003038	379.809000
0.115583	0.003291	411.366125
0.122302	0.003519	439.882500
0.128978	0.003772	471.487875
0.135677	0.004001	500.155875
0.142419	0.004248	531.030875
0.149133	0.004492	561.555375
0.155838	0.004730	591.304125
0.162547	0.004969	621.160625
0.169286	0.005217	652.148125
0.175989	0.005467	683.353875
0.182701	0.005708	713.529000
0.189380	0.005939	742.355750
0.196085	0.006187	773.417125
0.202824	0.006431	803.905875
0.209536	0.006672	834.056750
0.216244	0.006911	863.888125
0.222952	0.007158	894.753250
0.229690	0.007404	925.487375
0.236395	0.007638	954.797875
0.243076	0.007881	985.079500
0.249781	0.008129	1016.129875
0.256521	0.008369	1046.124875
0.263225	0.008611	1076.377625
0.269934	0.008854	1106.756250
0.276647	0.009094	1136.737000
0.283315	0.009334	1166.746250
0.290088	0.009579	1197.320125
0.296762	0.009821	1227.570125
0.303472	0.010060	1257.550000
0.310179	0.010301	1287.583750
0.316995	0.010547	1318.376250
0.323702	0.010794	1349.262500
0.330415	0.011033	1379.120000
0.337097	0.011278	1409.755000
0.343797	0.011519	1439.822500
0.350542	0.011763	1470.320000
0.357248	0.012005	1500.660000
0.363953	0.012245	1530.682500
0.370674	0.012481	1560.127500
0.377412	0.012731	1591.316250
0.384116	0.012963	1620.405000
0.390792	0.013210	1651.273750
0.397492	0.013461	1682.628750
0.404245	0.013702	1712.726250
0.410951	0.013941	1742.597500
0.417651	0.014178	1772.237500
0.424363	0.014420	1802.448750
0.431079	0.014675	1834.317500
0.437821	0.014912	1863.948750
0.444522	0.015154	1894.251250
0.451193	0.015391	1923.898750
0.457904	0.015631	1953.866250
0.464652	0.015878	1984.690000
0.471360	0.016121	2015.087500
0.478075	0.016359	2044.872500
0.484770	0.016607	2075.836250
0.491512	0.016848	2106.055000
0.498232	0.017094	2136.805000
0.504894	0.017324	2165.465000
0.511611	0.017576	2196.993750
0.518316	0.017816	2226.978750
0.525053	0.018050	2256.255000
0.531763	0.018303	2287.851250
0.538473	0.018547	2318.392500
0.545145	0.018784	2348.025000
0.551916	0.019023	2377.870000
0.558593	0.019267	2408.327500
0.565304	0.019508	2438.543750
0.572008	0.019756	2469.546250
0.578715	0.019990	2498.810000
0.585457	0.020228	2528.511250
0.592168	0.020482	2560.206250
0.598849	0.020723	2590.422500
0.605560	0.020966	2620.790000
0.612297	0.021213	2651.626250
0.619003	0.021450	2681.305000
0.625714	0.021687	2710.935000
0.632418	0.021935	2741.935000
0.639161	0.022180	2772.548750
0.645868	0.022423	2802.936250
0.652544	0.022665	2833.163750
0.659249	0.022904	2862.948750
0.665959	0.023143	2892.847500
0.672695	0.023384	2922.995000
0.679401	0.023628	2953.513750
0.686114	0.023873	2984.178750
0.692792	0.024119	3014.880000
0.699555	0.024364	3045.472500
0.706269	0.024601	3075.106250
0.712951	0.024833	3104.070000
0.719654	0.025085	3135.666250
0.726368	0.025322	3165.273750
0.733103	0.025566	3195.782500
0.739809	0.025817	3227.076250
0.746531	0.026057	3257.128750
0.753204	0.026295	3286.825000
0.759970	0.026533	3316.655000
0.766640	0.026788	3348.558750
0.773349	0.027026	3378.307500
0.780061	0.027269	3408.610000
0.786806	0.027506	3438.212500
0.793514	0.027753	3469.183750
0.800217	0.027995	3499.330000
