Voltage (V)	Current (A)	Current Density (A/m^2)	 Dividing Wavelength (nm) = 780  Light Power Density (W/m^2) = 1042.670581  Total Light Power Density (W/m^2) = 1042.670581	
-0.199978	-0.000292	-50.332190
-0.191892	-0.000291	-50.153948
-0.183816	-0.000294	-50.725621
-0.175743	-0.000295	-50.803103
-0.167701	-0.000293	-50.557655
-0.159592	-0.000292	-50.424276
-0.151480	-0.000289	-49.840052
-0.143440	-0.000290	-50.049069
-0.135331	-0.000294	-50.669379
-0.127220	-0.000291	-50.209052
-0.119176	-0.000287	-49.559138
-0.111073	-0.000291	-50.217776
-0.103031	-0.000292	-50.424586
-0.094923	-0.000290	-50.080690
-0.086847	-0.000285	-49.164707
-0.078773	-0.000295	-50.791828
-0.070697	-0.000297	-51.170207
-0.062620	-0.000288	-49.577293
-0.054546	-0.000285	-49.081724
-0.046430	-0.000282	-48.555086
-0.038386	-0.000288	-49.610552
-0.030277	-0.000288	-49.601310
-0.022169	-0.000290	-50.002310
-0.014125	-0.000284	-48.917345
-0.006014	-0.000287	-49.487966
0.002007	-0.000285	-49.156621
0.010083	-0.000288	-49.620569
0.018195	-0.000288	-49.588086
0.026237	-0.000287	-49.426138
0.034348	-0.000284	-48.988328
0.042389	-0.000283	-48.778741
0.050496	-0.000286	-49.250810
0.058611	-0.000281	-48.419966
0.066656	-0.000277	-47.707638
0.074728	-0.000281	-48.390897
0.082840	-0.000278	-47.967655
0.090882	-0.000285	-49.100810
0.098993	-0.000277	-47.674345
0.107034	-0.000278	-47.962810
0.115143	-0.000279	-48.180000
0.123261	-0.000278	-47.993362
0.131305	-0.000273	-47.077397
0.139415	-0.000276	-47.582397
0.147455	-0.000284	-48.884000
0.155567	-0.000279	-48.069017
0.163643	-0.000270	-46.582086
0.171684	-0.000276	-47.526086
0.179795	-0.000279	-48.111690
0.187907	-0.000275	-47.362052
0.195948	-0.000273	-47.090034
0.204060	-0.000274	-47.184828
0.212098	-0.000272	-46.980776
0.220210	-0.000270	-46.517052
0.228285	-0.000269	-46.342517
0.236365	-0.000270	-46.606707
0.244436	-0.000269	-46.446948
0.252547	-0.000267	-46.046362
0.260589	-0.000264	-45.586086
0.268700	-0.000268	-46.189397
0.276745	-0.000264	-45.598586
0.284856	-0.000266	-45.789259
0.292968	-0.000261	-44.986724
0.301009	-0.000263	-45.369655
0.309084	-0.000259	-44.647672
0.317161	-0.000260	-44.912224
0.325242	-0.000254	-43.739741
0.333351	-0.000254	-43.728707
0.341392	-0.000256	-44.075310
0.349499	-0.000258	-44.458345
0.357608	-0.000252	-43.473483
0.365650	-0.000256	-44.159362
0.373762	-0.000247	-42.657172
0.381803	-0.000249	-42.997276
0.389881	-0.000246	-42.405741
0.397985	-0.000243	-41.981293
0.406031	-0.000240	-41.458862
0.414138	-0.000235	-40.576948
0.422189	-0.000235	-40.504293
0.430294	-0.000230	-39.587172
0.438407	-0.000223	-38.396810
0.446449	-0.000219	-37.767741
0.454558	-0.000210	-36.268172
0.462636	-0.000204	-35.215414
0.470714	-0.000194	-33.510828
0.478788	-0.000185	-31.920466
0.486829	-0.000170	-29.279034
0.494940	-0.000148	-25.572034
0.503046	-0.000128	-22.127293
0.511092	-0.000103	-17.775345
0.519213	-7.205897E-5	-12.423960
0.527250	-3.964956E-5	-6.836131
0.535316	5.848290E-6	1.008326
0.543407	5.488926E-5	9.463666
0.551490	0.000110	18.956414
0.559565	0.000173	29.831862
0.567676	0.000248	42.732190
0.575719	0.000327	56.402121
0.583825	0.000417	71.914759
0.591865	0.000513	88.496690
0.599977	0.000618	106.637707
