Voltage (V)	Current (A)	Current Density (A/m^2)	 Dividing Wavelength (nm) = 790  Light Power Density (W/m^2) = 1076.543839  Total Light Power Density (W/m^2) = 1076.543839	
-0.199917	-0.000264	-33.054950
-0.193234	-0.000259	-32.331075
-0.186526	-0.000262	-32.689737
-0.179789	-0.000257	-32.141500
-0.173081	-0.000258	-32.252675
-0.166370	-0.000262	-32.770787
-0.159658	-0.000254	-31.717813
-0.152924	-0.000259	-32.343750
-0.146217	-0.000258	-32.265850
-0.139505	-0.000260	-32.450238
-0.132828	-0.000258	-32.204650
-0.126054	-0.000260	-32.480925
-0.119375	-0.000257	-32.114975
-0.112680	-0.000259	-32.398800
-0.105973	-0.000257	-32.097150
-0.099265	-0.000255	-31.893500
-0.092518	-0.000256	-31.976263
-0.085821	-0.000259	-32.414600
-0.079112	-0.000264	-32.985750
-0.072435	-0.000257	-32.129263
-0.065658	-0.000256	-32.040363
-0.058989	-0.000258	-32.237075
-0.052283	-0.000257	-32.132200
-0.045572	-0.000255	-31.894837
-0.038856	-0.000256	-32.021575
-0.032117	-0.000259	-32.330775
-0.025414	-0.000256	-32.026025
-0.018700	-0.000257	-32.111763
-0.012031	-0.000253	-31.632450
-0.005248	-0.000257	-32.160513
0.001387	-0.000253	-31.633513
0.008093	-0.000257	-32.063313
0.014802	-0.000256	-32.041837
0.021540	-0.000255	-31.918813
0.028259	-0.000253	-31.576538
0.034932	-0.000254	-31.781538
0.041635	-0.000256	-31.945213
0.048346	-0.000254	-31.774000
0.055096	-0.000258	-32.258488
0.061804	-0.000254	-31.795200
0.068511	-0.000254	-31.710938
0.075180	-0.000253	-31.667088
0.081956	-0.000254	-31.804538
0.088636	-0.000251	-31.375937
0.095344	-0.000254	-31.803663
0.102055	-0.000248	-30.949288
0.108759	-0.000250	-31.274887
0.115500	-0.000258	-32.195613
0.122207	-0.000250	-31.249625
0.128882	-0.000247	-30.868688
0.135591	-0.000250	-31.238700
0.142331	-0.000248	-30.974688
0.149048	-0.000248	-31.011563
0.155751	-0.000254	-31.747488
0.162464	-0.000253	-31.665625
0.169202	-0.000249	-31.153375
0.175902	-0.000249	-31.068525
0.182623	-0.000249	-31.115837
0.189297	-0.000248	-31.022900
0.195998	-0.000246	-30.798325
0.202738	-0.000246	-30.721388
0.209446	-0.000245	-30.594900
0.216166	-0.000245	-30.610587
0.222875	-0.000243	-30.320588
0.229610	-0.000247	-30.829338
0.236318	-0.000244	-30.552850
0.243002	-0.000238	-29.735588
0.249708	-0.000245	-30.627200
0.256443	-0.000243	-30.355812
0.263154	-0.000243	-30.316150
0.269858	-0.000237	-29.640100
0.276569	-0.000238	-29.749750
0.283243	-0.000239	-29.863200
0.290019	-0.000234	-29.221950
0.296689	-0.000236	-29.490538
0.303402	-0.000237	-29.576213
0.310110	-0.000237	-29.671312
0.316848	-0.000236	-29.486950
0.323554	-0.000236	-29.484725
0.330272	-0.000234	-29.257850
0.336952	-0.000230	-28.750538
0.343656	-0.000230	-28.796813
0.350401	-0.000226	-28.279663
0.357106	-0.000228	-28.553338
0.363810	-0.000225	-28.182938
0.370525	-0.000223	-27.842063
0.377258	-0.000219	-27.414725
0.383972	-0.000219	-27.317038
0.390640	-0.000216	-27.008938
0.397346	-0.000216	-27.036925
0.404096	-0.000212	-26.533388
0.410802	-0.000214	-26.707688
0.417504	-0.000207	-25.936225
0.424215	-0.000203	-25.421000
0.430930	-0.000202	-25.205738
0.437671	-0.000197	-24.649887
0.444380	-0.000196	-24.468850
0.451052	-0.000190	-23.704500
0.457757	-0.000184	-22.963163
0.464506	-0.000178	-22.248787
0.471213	-0.000173	-21.640875
0.477923	-0.000166	-20.699300
0.484625	-0.000159	-19.932362
0.491366	-0.000150	-18.745612
0.498080	-0.000143	-17.894250
0.504760	-0.000137	-17.106050
0.511466	-0.000127	-15.903350
0.518169	-0.000114	-14.220150
0.524920	-0.000103	-12.916563
0.531633	-9.066299E-5	-11.332874
0.538338	-7.533665E-5	-9.417081
0.545006	-6.034128E-5	-7.542660
0.551772	-4.467642E-5	-5.584553
0.558452	-2.434531E-5	-3.043164
0.565141	-6.903357E-6	-0.862920
0.571855	1.608609E-5	2.010761
0.578557	3.849722E-5	4.812153
0.585291	6.485466E-5	8.106833
0.591997	9.179716E-5	11.474645
0.598695	0.000121	15.185500
0.605404	0.000153	19.094150
0.612145	0.000188	23.441413
0.618858	0.000226	28.261150
0.625562	0.000264	33.047513
0.632273	0.000308	38.475000
0.639009	0.000353	44.136750
0.645720	0.000401	50.138388
0.652392	0.000452	56.471150
0.659096	0.000505	63.170750
0.665802	0.000563	70.349275
0.672537	0.000623	77.926475
0.679246	0.000687	85.860438
0.685961	0.000753	94.184425
0.692631	0.000823	102.869925
0.699396	0.000897	112.094387
0.706107	0.000973	121.647963
0.712826	0.001053	131.592500
0.719531	0.001136	142.046500
0.726249	0.001222	152.761875
0.732986	0.001312	163.992750
0.739692	0.001405	175.573625
0.746411	0.001500	187.538625
0.753092	0.001599	199.925875
0.759858	0.001703	212.879875
0.766533	0.001807	225.902000
0.773244	0.001915	239.396500
0.779959	0.002028	253.442875
0.786698	0.002142	267.797000
0.793408	0.002259	282.396750
0.800109	0.002380	297.477875
