Voltage (V)	Current (A)	Current Density (A/m^2)	 Dividing Wavelength (nm) = 400  Light Power Density (W/m^2) = 1076.543839  Total Light Power Density (W/m^2) = 1076.543839	
-0.199879	-0.002536	-317.038500
-0.193204	-0.002549	-318.632000
-0.186481	-0.002545	-318.062875
-0.179748	-0.002550	-318.726750
-0.173041	-0.002537	-317.113375
-0.166330	-0.002529	-316.097500
-0.159623	-0.002500	-312.478125
-0.152880	-0.002520	-315.043750
-0.146175	-0.002503	-312.817375
-0.139465	-0.002498	-312.301375
-0.132791	-0.002535	-316.820000
-0.126014	-0.002502	-312.693625
-0.119338	-0.002520	-315.048500
-0.112637	-0.002506	-313.210750
-0.105928	-0.002515	-314.356750
-0.099224	-0.002499	-312.354125
-0.092477	-0.002496	-311.979500
-0.085775	-0.002497	-312.168000
-0.079062	-0.002508	-313.461625
-0.072383	-0.002504	-313.043125
-0.065616	-0.002492	-311.453375
-0.058940	-0.002486	-310.805875
-0.052235	-0.002476	-309.547250
-0.045527	-0.002484	-310.494750
-0.038812	-0.002473	-309.089000
-0.032073	-0.002473	-309.076125
-0.025367	-0.002479	-309.836750
-0.018656	-0.002476	-309.556625
-0.011987	-0.002485	-310.663250
-0.005209	-0.002471	-308.897375
0.001430	-0.002475	-309.370875
0.008137	-0.002437	-304.604500
0.014842	-0.002457	-307.143250
0.021588	-0.002420	-302.513500
0.028302	-0.002438	-304.796875
0.034970	-0.002425	-303.124500
0.041677	-0.002455	-306.924375
0.048383	-0.002430	-303.794625
0.055138	-0.002411	-301.348500
0.061845	-0.002435	-304.411875
0.068552	-0.002398	-299.748625
0.075226	-0.002404	-300.487750
0.081996	-0.002412	-301.561250
0.088673	-0.002416	-301.985875
0.095387	-0.002401	-300.138250
0.102095	-0.002391	-298.928250
0.108798	-0.002400	-300.000125
0.115542	-0.002383	-297.937250
0.122254	-0.002392	-298.985125
0.128934	-0.002375	-296.830000
0.135633	-0.002366	-295.712125
0.142376	-0.002341	-292.598000
0.149085	-0.002348	-293.559750
0.155795	-0.002343	-292.880625
0.162508	-0.002339	-292.405000
0.169246	-0.002320	-290.008500
0.175950	-0.002324	-290.471625
0.182666	-0.002314	-289.204250
0.189340	-0.002294	-286.779000
0.196049	-0.002290	-286.256500
0.202790	-0.002302	-287.696250
0.209498	-0.002281	-285.065125
0.216210	-0.002292	-286.476875
0.222914	-0.002260	-282.468625
0.229654	-0.002256	-281.978000
0.236364	-0.002253	-281.647000
0.243039	-0.002224	-277.951625
0.249746	-0.002229	-278.664750
0.256489	-0.002220	-277.476000
0.263197	-0.002200	-274.991375
0.269899	-0.002204	-275.510500
0.276612	-0.002184	-273.026000
0.283288	-0.002178	-272.284375
0.290063	-0.002163	-270.357500
0.296735	-0.002125	-265.636625
0.303445	-0.002133	-266.685375
0.310155	-0.002117	-264.607125
0.316895	-0.002112	-264.053875
0.323605	-0.002094	-261.703000
0.330314	-0.002064	-258.022375
0.336996	-0.002050	-256.272750
0.343701	-0.002065	-258.107625
0.350442	-0.002005	-250.651375
0.357151	-0.002010	-251.264125
0.363855	-0.001986	-248.198375
0.370571	-0.001979	-247.418500
0.377307	-0.001955	-244.376250
0.384016	-0.001929	-241.142875
0.390690	-0.001909	-238.590500
0.397395	-0.001874	-234.194500
0.404143	-0.001855	-231.898250
0.410852	-0.001835	-229.431500
0.417557	-0.001819	-227.321375
0.424262	-0.001777	-222.159250
0.430977	-0.001751	-218.900250
0.437719	-0.001725	-215.627750
0.444422	-0.001682	-210.276875
0.451098	-0.001658	-207.299000
0.457807	-0.001623	-202.826250
0.464551	-0.001606	-200.763500
0.471259	-0.001561	-195.073125
0.477971	-0.001531	-191.430625
0.484675	-0.001489	-186.187125
0.491415	-0.001439	-179.883125
0.498127	-0.001392	-174.043500
0.504807	-0.001361	-170.144250
0.511505	-0.001313	-164.167625
0.518210	-0.001271	-158.926000
0.524961	-0.001218	-152.259250
0.531666	-0.001166	-145.725125
0.538372	-0.001118	-139.778625
0.545051	-0.001063	-132.887625
0.551813	-0.001008	-126.030750
0.558491	-0.000938	-117.259213
0.565199	-0.000883	-110.410375
0.571901	-0.000826	-103.281813
0.578608	-0.000754	-94.197288
0.585345	-0.000689	-86.141337
0.592057	-0.000624	-78.036975
0.598743	-0.000548	-68.559538
0.605447	-0.000477	-59.646925
0.612176	-0.000398	-49.805750
0.618890	-0.000313	-39.075538
0.625602	-0.000227	-28.390150
0.632303	-0.000143	-17.935762
0.639050	-5.727971E-5	-7.159964
0.645731	2.960316E-5	3.700395
0.652414	0.000122	15.274750
0.659119	0.000216	26.956412
0.665827	0.000317	39.644462
0.672562	0.000413	51.662150
0.679264	0.000515	64.373075
0.685971	0.000625	78.073650
0.692646	0.000729	91.146138
0.699412	0.000839	104.874888
0.706124	0.000953	119.154287
0.712840	0.001068	133.504625
0.719545	0.001186	148.309875
0.726257	0.001307	163.412625
0.732997	0.001430	178.739250
0.739705	0.001556	194.508375
0.746423	0.001684	210.449375
0.753095	0.001814	226.700875
0.759870	0.001947	243.433500
0.766547	0.002082	260.226750
0.773247	0.002219	277.412375
0.779967	0.002359	294.854250
0.786707	0.002502	312.766500
0.793411	0.002646	330.810250
0.800111	0.002791	348.922250
