Voltage (V)	Current (A)	Current Density (A/m^2)	 Dividing Wavelength (nm) = 460  Light Power Density (W/m^2) = 1107.265488  Total Light Power Density (W/m^2) = 1107.265488	
-0.199904	-0.000131	-16.436225
-0.189826	-0.000131	-16.412450
-0.179779	-0.000131	-16.395837
-0.169661	-0.000131	-16.360138
-0.159548	-0.000130	-16.295713
-0.149503	-0.000130	-16.307000
-0.139396	-0.000130	-16.289025
-0.129318	-0.000131	-16.319450
-0.119274	-0.000130	-16.244087
-0.109157	-0.000130	-16.283487
-0.099042	-0.000129	-16.177600
-0.089006	-0.000129	-16.143525
-0.078892	-0.000130	-16.189488
-0.068812	-0.000130	-16.254863
-0.058697	-0.000128	-16.044012
-0.048648	-0.000129	-16.086088
-0.038538	-0.000129	-16.096975
-0.028430	-0.000128	-15.948763
-0.018382	-0.000129	-16.096150
-0.008304	-0.000128	-15.973313
0.001773	-0.000127	-15.901350
0.011818	-0.000128	-15.965050
0.021894	-0.000128	-15.951562
0.032007	-0.000127	-15.824500
0.042051	-0.000127	-15.825338
0.052168	-0.000126	-15.794263
0.062253	-0.000128	-15.937850
0.072324	-0.000126	-15.723650
0.082405	-0.000126	-15.744100
0.092517	-0.000127	-15.831513
0.102565	-0.000125	-15.664225
0.112679	-0.000125	-15.610975
0.122759	-0.000126	-15.689713
0.132799	-0.000125	-15.600250
0.142913	-0.000124	-15.520987
0.153025	-0.000126	-15.707750
0.163106	-0.000124	-15.545513
0.173157	-0.000124	-15.523988
0.183266	-0.000123	-15.398538
0.193378	-0.000123	-15.388150
0.203420	-0.000124	-15.498550
0.213507	-0.000122	-15.309775
0.223614	-0.000122	-15.294762
0.233668	-0.000122	-15.215125
0.243768	-0.000122	-15.286938
0.253853	-0.000122	-15.259225
0.263930	-0.000122	-15.204413
0.274009	-0.000120	-15.052663
0.284122	-0.000121	-15.167138
0.294166	-0.000120	-14.968175
0.304279	-0.000120	-14.969175
0.314360	-0.000119	-14.929013
0.324411	-0.000118	-14.763613
0.334524	-0.000119	-14.891088
0.344632	-0.000117	-14.685738
0.354673	-0.000119	-14.842512
0.364750	-0.000118	-14.730975
0.374867	-0.000118	-14.687700
0.384911	-0.000116	-14.537313
0.395026	-0.000115	-14.394575
0.405107	-0.000116	-14.480575
0.415214	-0.000115	-14.344687
0.425258	-0.000114	-14.251750
0.435377	-0.000114	-14.226238
0.445458	-0.000114	-14.229812
0.455533	-0.000113	-14.068862
0.465608	-0.000112	-13.964662
0.475723	-0.000112	-13.991025
0.485768	-0.000111	-13.871163
0.495885	-0.000110	-13.756063
0.505963	-0.000109	-13.660650
0.516013	-0.000109	-13.569713
0.526121	-0.000108	-13.462263
0.536225	-0.000107	-13.358475
0.546278	-0.000105	-13.145650
0.556351	-0.000104	-13.036737
0.566464	-0.000103	-12.843787
0.576508	-0.000102	-12.715188
0.586632	-0.000101	-12.563400
0.596705	-9.892300E-5	-12.365375
0.606792	-9.566583E-5	-11.958229
0.616871	-9.378615E-5	-11.723269
0.626983	-9.046742E-5	-11.308428
0.637024	-8.822753E-5	-11.028441
0.647137	-8.426349E-5	-10.532936
0.657217	-7.919381E-5	-9.899226
0.667327	-7.377785E-5	-9.222231
0.677377	-6.640059E-5	-8.300074
0.687480	-5.852989E-5	-7.316236
0.697555	-4.818203E-5	-6.022754
0.707609	-3.651958E-5	-4.564948
0.717713	-2.043196E-5	-2.553995
0.728316	-8.090056E-7	-0.101126
0.737846	2.180911E-5	2.726139
0.747921	5.071510E-5	6.339387
0.758031	8.598859E-5	10.748574
0.768094	0.000128	16.051875
0.778210	0.000180	22.439238
0.788320	0.000240	29.988725
0.798375	0.000311	38.882263
0.808444	0.000393	49.166187
0.818556	0.000488	60.986138
0.828602	0.000595	74.326988
0.838714	0.000715	89.372025
0.848795	0.000848	105.982475
0.858829	0.000993	124.130625
0.868987	0.001152	144.041000
0.879110	0.001324	165.499500
0.889197	0.001507	188.386625
0.899237	0.001701	212.625750
0.909356	0.001907	238.430750
0.919465	0.002124	265.562125
0.929512	0.002350	293.771000
0.939629	0.002587	323.405000
0.949703	0.002832	354.052250
0.959754	0.003086	385.715375
0.969858	0.003349	418.588250
0.979975	0.003620	452.525000
0.990018	0.003897	487.134250
1.000099	0.004182	522.739375
