Voltage (V)	Current (A)	Current Density (A/m^2)	 Dividing Wavelength (nm) = 780  Light Power Density (W/m^2) = 1076.543839  Total Light Power Density (W/m^2) = 1076.543839	
-0.199859	-0.000331	-41.362050
-0.193183	-0.000329	-41.139675
-0.186457	-0.000329	-41.110700
-0.179726	-0.000327	-40.825263
-0.173019	-0.000328	-41.011425
-0.166310	-0.000330	-41.307375
-0.159600	-0.000333	-41.599463
-0.152854	-0.000327	-40.868213
-0.146155	-0.000327	-40.922575
-0.139449	-0.000336	-42.061638
-0.132771	-0.000329	-41.184912
-0.125992	-0.000327	-40.885925
-0.119318	-0.000331	-41.317062
-0.112611	-0.000325	-40.621688
-0.105908	-0.000320	-39.992263
-0.099202	-0.000325	-40.613063
-0.092453	-0.000329	-41.069138
-0.085752	-0.000329	-41.120700
-0.079040	-0.000328	-41.060500
-0.072363	-0.000322	-40.298063
-0.065589	-0.000326	-40.718212
-0.058918	-0.000323	-40.312725
-0.052219	-0.000320	-40.021825
-0.045502	-0.000320	-40.043375
-0.038792	-0.000326	-40.768138
-0.032054	-0.000325	-40.606637
-0.025346	-0.000322	-40.278425
-0.018639	-0.000323	-40.366075
-0.011965	-0.000324	-40.467337
-0.005184	-0.000315	-39.381150
0.001450	-0.000324	-40.533500
0.008159	-0.000322	-40.273150
0.014866	-0.000321	-40.063437
0.021613	-0.000317	-39.565512
0.028318	-0.000325	-40.585425
0.034995	-0.000320	-40.051400
0.041700	-0.000319	-39.826862
0.048411	-0.000320	-39.977963
0.055158	-0.000317	-39.658363
0.061863	-0.000318	-39.694413
0.068573	-0.000316	-39.449600
0.075246	-0.000321	-40.128712
0.082019	-0.000319	-39.859013
0.088697	-0.000316	-39.442450
0.095400	-0.000314	-39.236725
0.102114	-0.000317	-39.654888
0.108818	-0.000316	-39.553137
0.115553	-0.000318	-39.695138
0.122271	-0.000312	-39.027812
0.128948	-0.000306	-38.225613
0.135647	-0.000308	-38.533588
0.142389	-0.000307	-38.344113
0.149105	-0.000309	-38.633538
0.155817	-0.000309	-38.677450
0.162528	-0.000313	-39.169325
0.169264	-0.000308	-38.527500
0.175963	-0.000311	-38.914563
0.182687	-0.000306	-38.289325
0.189357	-0.000307	-38.437350
0.196066	-0.000308	-38.445600
0.202809	-0.000301	-37.571975
0.209514	-0.000303	-37.881312
0.216234	-0.000306	-38.305763
0.222932	-0.000304	-37.952488
0.229669	-0.000299	-37.361050
0.236384	-0.000298	-37.311213
0.243059	-0.000302	-37.730338
0.249768	-0.000304	-38.057488
0.256500	-0.000297	-37.160963
0.263210	-0.000301	-37.569038
0.269926	-0.000296	-36.953100
0.276633	-0.000295	-36.894888
0.283304	-0.000298	-37.310463
0.290081	-0.000295	-36.925688
0.296755	-0.000294	-36.698887
0.303460	-0.000293	-36.593000
0.310175	-0.000295	-36.915075
0.316917	-0.000296	-37.048625
0.323622	-0.000296	-36.985163
0.330333	-0.000292	-36.541787
0.337013	-0.000289	-36.084038
0.343717	-0.000287	-35.861962
0.350466	-0.000291	-36.381825
0.357166	-0.000291	-36.376250
0.363876	-0.000281	-35.148450
0.370590	-0.000286	-35.762500
0.377332	-0.000289	-36.123488
0.384035	-0.000287	-35.930713
0.390702	-0.000284	-35.448425
0.397420	-0.000280	-34.982700
0.404166	-0.000278	-34.785013
0.410867	-0.000279	-34.823350
0.417572	-0.000277	-34.649037
0.424276	-0.000274	-34.217112
0.430996	-0.000271	-33.936350
0.437737	-0.000270	-33.743050
0.444444	-0.000267	-33.397200
0.451115	-0.000265	-33.161963
0.457824	-0.000259	-32.383550
0.464567	-0.000260	-32.450438
0.471282	-0.000260	-32.547812
0.477989	-0.000256	-32.041650
0.484692	-0.000249	-31.154463
0.491433	-0.000246	-30.720237
0.498146	-0.000242	-30.285438
0.504825	-0.000236	-29.550025
0.511527	-0.000231	-28.894987
0.518235	-0.000223	-27.851813
0.524977	-0.000217	-27.167875
0.531679	-0.000208	-25.989888
0.538393	-0.000200	-25.001600
0.545060	-0.000193	-24.069988
0.551836	-0.000178	-22.276238
0.558521	-0.000159	-19.889575
0.565233	-0.000145	-18.158975
0.571935	-0.000128	-16.022512
0.578644	-0.000103	-12.886075
0.585376	-8.083908E-5	-10.104885
0.592091	-5.034220E-5	-6.292775
0.598770	-1.836531E-5	-2.295664
0.605463	1.601119E-5	2.001399
0.612196	5.931179E-5	7.413974
0.618377	0.000103	12.845150
0.625612	0.000160	20.041550
0.632319	0.000220	27.520963
0.639062	0.000285	35.590075
0.645766	0.000361	45.178900
0.652452	0.000445	55.591038
0.659154	0.000534	66.768163
0.665869	0.000635	79.315125
0.672602	0.000744	92.989300
0.679301	0.000858	107.220950
0.686014	0.000986	123.258638
0.692725	0.001122	140.298500
0.699495	0.001270	158.722500
0.706206	0.001422	177.744625
0.712892	0.001585	198.091875
0.719599	0.001756	219.548500
0.726310	0.001937	242.068625
0.733048	0.002126	265.734750
0.739761	0.002322	290.210750
0.746477	0.002526	315.716500
0.753150	0.002735	341.854375
0.759922	0.002955	369.330500
0.766597	0.003178	397.208250
0.773302	0.003408	425.986750
0.780007	0.003645	455.623625
0.786752	0.003889	486.110125
0.793457	0.004137	517.116250
0.800165	0.004390	548.800875
