Voltage (V)	Current (A)	Current Density (A/m^2)	 Dividing Wavelength (nm) = 460  Light Power Density (W/m^2) = 1107.265488  Total Light Power Density (W/m^2) = 1107.265488	
-0.199865	-9.780622E-5	-12.225777
-0.189784	-9.813499E-5	-12.266874
-0.179738	-9.665093E-5	-12.081366
-0.169623	-9.755464E-5	-12.194330
-0.159515	-9.730518E-5	-12.163148
-0.149470	-9.701344E-5	-12.126680
-0.139356	-9.617196E-5	-12.021495
-0.129283	-9.681720E-5	-12.102150
-0.119232	-9.539395E-5	-11.924244
-0.109121	-9.618132E-5	-12.022665
-0.099010	-9.636665E-5	-12.045831
-0.088972	-9.589342E-5	-11.986678
-0.078860	-9.605892E-5	-12.007365
-0.068781	-9.584061E-5	-11.980076
-0.058662	-9.485643E-5	-11.857054
-0.048609	-9.476728E-5	-11.845910
-0.038504	-9.511464E-5	-11.889330
-0.028400	-9.467563E-5	-11.834454
-0.018354	-9.457138E-5	-11.821423
-0.008270	-9.440164E-5	-11.800205
0.001797	-9.396734E-5	-11.745918
0.011844	-9.411109E-5	-11.763886
0.021918	-9.416119E-5	-11.770149
0.032038	-9.244786E-5	-11.555983
0.042080	-9.309717E-5	-11.637146
0.052197	-9.356120E-5	-11.695150
0.062283	-9.230589E-5	-11.538236
0.072351	-9.304415E-5	-11.630519
0.082436	-9.284107E-5	-11.605134
0.092547	-9.229326E-5	-11.536658
0.102593	-9.217449E-5	-11.521811
0.112709	-9.196193E-5	-11.495241
0.122788	-9.180899E-5	-11.476124
0.132827	-9.110001E-5	-11.387501
0.142939	-9.149715E-5	-11.437144
0.153052	-9.083284E-5	-11.354105
0.163140	-9.039125E-5	-11.298906
0.173183	-9.018928E-5	-11.273660
0.183300	-8.997846E-5	-11.247308
0.193409	-8.940209E-5	-11.175261
0.203454	-8.933809E-5	-11.167261
0.213533	-8.907075E-5	-11.133844
0.223645	-8.931748E-5	-11.164685
0.233693	-8.831049E-5	-11.038811
0.243799	-8.859758E-5	-11.074698
0.253881	-8.797805E-5	-10.997256
0.263960	-8.795425E-5	-10.994281
0.274042	-8.840473E-5	-11.050591
0.284152	-8.736797E-5	-10.920996
0.294201	-8.626265E-5	-10.782831
0.304308	-8.678893E-5	-10.848616
0.314388	-8.546516E-5	-10.683145
0.324441	-8.576729E-5	-10.720911
0.334550	-8.577936E-5	-10.722420
0.344660	-8.511365E-5	-10.639206
0.354708	-8.489483E-5	-10.611854
0.364782	-8.464844E-5	-10.581055
0.374900	-8.377961E-5	-10.472451
0.384948	-8.365866E-5	-10.457332
0.395053	-8.229435E-5	-10.286794
0.405137	-8.285800E-5	-10.357250
0.415238	-8.181339E-5	-10.226674
0.425285	-8.174674E-5	-10.218343
0.435407	-8.136548E-5	-10.170685
0.445483	-7.994864E-5	-9.993580
0.455563	-8.044748E-5	-10.055935
0.465639	-7.968766E-5	-9.960958
0.475758	-7.931958E-5	-9.914948
0.485797	-7.894700E-5	-9.868375
0.495916	-7.763545E-5	-9.704431
0.505992	-7.666714E-5	-9.583393
0.516037	-7.721177E-5	-9.651471
0.526149	-7.561361E-5	-9.451701
0.536257	-7.462771E-5	-9.328464
0.546306	-7.379655E-5	-9.224569
0.556386	-7.289243E-5	-9.111554
0.566496	-7.250972E-5	-9.063715
0.576541	-7.071615E-5	-8.839519
0.586652	-6.964630E-5	-8.705787
0.596732	-6.766009E-5	-8.457511
0.606818	-6.657175E-5	-8.321469
0.616897	-6.490601E-5	-8.113251
0.627009	-6.230528E-5	-7.788160
0.637049	-6.033853E-5	-7.542316
0.647162	-5.708530E-5	-7.135663
0.657244	-5.347804E-5	-6.684755
0.667357	-4.886135E-5	-6.107669
0.677399	-4.366681E-5	-5.458351
0.687510	-3.697403E-5	-4.621754
0.697589	-2.932662E-5	-3.665828
0.707639	-1.781934E-5	-2.227418
0.717756	-6.002585E-6	-0.750323
0.727118	9.640232E-6	1.205029
0.737879	3.183385E-5	3.979231
0.747951	5.919459E-5	7.399324
0.758044	9.311738E-5	11.639672
0.768118	0.000137	17.114788
0.778238	0.000191	23.881150
0.788350	0.000259	32.393025
0.798403	0.000342	42.755338
0.808470	0.000442	55.257175
0.818586	0.000561	70.158250
0.828631	0.000700	87.475888
0.838743	0.000860	107.480663
0.848861	0.001040	130.017750
0.858904	0.001240	155.003500
0.869024	0.001461	182.655000
0.879139	0.001701	212.678250
0.889225	0.001958	244.798375
0.899269	0.002231	278.872250
0.909384	0.002521	315.102500
0.919496	0.002825	353.085000
0.929543	0.003140	392.481125
0.939664	0.003470	433.716250
0.949734	0.003809	476.159000
0.959781	0.004158	519.784750
0.969886	0.004519	564.864375
0.979997	0.004889	611.122750
0.990045	0.005265	658.096875
1.000119	0.005650	706.246875
