Voltage (V)	Current (A)	Current Density (A/m^2)	 Dividing Wavelength (nm) = 630  Light Power Density (W/m^2) = 1076.543839  Total Light Power Density (W/m^2) = 1076.543839	
-0.199846	-0.001540	-192.533750
-0.193165	-0.001543	-192.920750
-0.186450	-0.001544	-193.050500
-0.179719	-0.001536	-192.004500
-0.173008	-0.001538	-192.309125
-0.166297	-0.001543	-192.838500
-0.159588	-0.001518	-189.774125
-0.152846	-0.001541	-192.592875
-0.146138	-0.001532	-191.550000
-0.139437	-0.001521	-190.115125
-0.132753	-0.001530	-191.280375
-0.125976	-0.001535	-191.890625
-0.119303	-0.001518	-189.734500
-0.112600	-0.001532	-191.463625
-0.105890	-0.001521	-190.094125
-0.099184	-0.001516	-189.510125
-0.092444	-0.001542	-192.724875
-0.085734	-0.001503	-187.825375
-0.079032	-0.001529	-191.070375
-0.072353	-0.001514	-189.283250
-0.065573	-0.001521	-190.092125
-0.058904	-0.001518	-189.749875
-0.052200	-0.001514	-189.268125
-0.045483	-0.001522	-190.271500
-0.038777	-0.001506	-188.302000
-0.032044	-0.001513	-189.069875
-0.025331	-0.001505	-188.068625
-0.018618	-0.001508	-188.486125
-0.011953	-0.001506	-188.191250
-0.005175	-0.001512	-189.025500
0.001462	-0.001515	-189.370000
0.008169	-0.001490	-186.271375
0.014880	-0.001510	-188.773875
0.021620	-0.001505	-188.130125
0.028336	-0.001510	-188.750125
0.035004	-0.001501	-187.683750
0.041711	-0.001485	-185.639250
0.048422	-0.001489	-186.157375
0.055169	-0.001479	-184.821250
0.061878	-0.001483	-185.401000
0.068585	-0.001478	-184.803625
0.075255	-0.001484	-185.450000
0.082033	-0.001482	-185.204125
0.088709	-0.001476	-184.561250
0.095420	-0.001475	-184.363500
0.102126	-0.001487	-185.866875
0.108827	-0.001482	-185.205875
0.115574	-0.001469	-183.659875
0.122286	-0.001464	-183.056875
0.128961	-0.001478	-184.728750
0.135666	-0.001471	-183.928625
0.142408	-0.001469	-183.615375
0.149120	-0.001455	-181.900875
0.155827	-0.001455	-181.813625
0.162538	-0.001469	-183.676875
0.169274	-0.001454	-181.709125
0.175978	-0.001459	-182.347250
0.182697	-0.001435	-179.432875
0.189372	-0.001461	-182.592500
0.196078	-0.001453	-181.572875
0.202817	-0.001451	-181.391875
0.209527	-0.001442	-180.287875
0.216241	-0.001445	-180.595000
0.222948	-0.001440	-180.046000
0.229689	-0.001439	-179.825125
0.236396	-0.001441	-180.090000
0.243074	-0.001434	-179.301375
0.249783	-0.001421	-177.636000
0.256520	-0.001423	-177.824000
0.263226	-0.001434	-179.238000
0.269931	-0.001418	-177.262500
0.276646	-0.001427	-178.382000
0.283322	-0.001420	-177.478750
0.290095	-0.001422	-177.719500
0.296766	-0.001418	-177.310875
0.303474	-0.001424	-177.969250
0.310189	-0.001427	-178.404500
0.316930	-0.001405	-175.612500
0.323632	-0.001399	-174.859750
0.330347	-0.001396	-174.480875
0.337034	-0.001394	-174.302875
0.343734	-0.001383	-172.906750
0.350478	-0.001384	-173.014375
0.357179	-0.001375	-171.855000
0.363889	-0.001370	-171.288125
0.370607	-0.001387	-173.329875
0.377340	-0.001354	-169.199250
0.384048	-0.001354	-169.189875
0.390725	-0.001357	-169.629750
0.397430	-0.001339	-167.339625
0.404178	-0.001339	-167.389125
0.410884	-0.001342	-167.772375
0.417584	-0.001325	-165.678250
0.424293	-0.001336	-166.954500
0.431013	-0.001321	-165.154750
0.437751	-0.001300	-162.486000
0.444460	-0.001297	-162.159750
0.451124	-0.001285	-160.616375
0.457835	-0.001274	-159.205250
0.464583	-0.001276	-159.464875
0.471291	-0.001264	-158.042000
0.477998	-0.001253	-156.615875
0.484702	-0.001245	-155.632375
0.491447	-0.001222	-152.705875
0.498163	-0.001234	-154.245750
0.504835	-0.001200	-149.985000
0.511543	-0.001190	-148.729250
0.518247	-0.001175	-146.933625
0.524997	-0.001154	-144.254375
0.531697	-0.001129	-141.157000
0.538413	-0.001108	-138.479875
0.545081	-0.001068	-133.463375
0.551853	-0.001053	-131.635125
0.558532	-0.001025	-128.132750
0.565221	-0.000975	-121.840425
0.571919	-0.000943	-117.899650
0.578633	-0.000904	-112.975225
0.585372	-0.000849	-106.079488
0.592086	-0.000796	-99.536188
0.598764	-0.000732	-91.485987
0.605470	-0.000673	-84.083200
0.612211	-0.000609	-76.091725
0.618919	-0.000525	-65.597013
0.625634	-0.000447	-55.813813
0.632344	-0.000349	-43.568013
0.639077	-0.000256	-31.977925
0.645791	-0.000145	-18.085388
0.652481	-3.454174E-5	-4.317717
0.659143	8.624334E-5	10.780418
0.665850	0.000212	26.439138
0.672589	0.000350	43.720050
0.679295	0.000488	60.980813
0.686001	0.000637	79.656463
0.692681	0.000794	99.221125
0.699449	0.000958	119.785875
0.706199	0.001128	141.021625
0.712881	0.001308	163.515375
0.719589	0.001494	186.733625
0.726304	0.001681	210.078875
0.733039	0.001879	234.820000
0.739754	0.002084	260.443125
0.746472	0.002292	286.508250
0.753139	0.002506	313.268875
0.759912	0.002728	341.040000
0.766592	0.002953	369.176625
0.773299	0.003186	398.208500
0.780012	0.003421	427.655500
0.786753	0.003661	457.618500
0.793449	0.003907	488.419750
0.800157	0.004156	519.491375
